{
    "patient": {
        "resourceType": "Patient",
        "id": "IVRTET",
        "gender": "other",
        "active": true,
        "name": [
            {
                "use": "usual",
                "text": "KARINE^RUNOLFSSON",
                "family": "KARINE",
                "given": [
                    "RUNOLFSSON"
                ]
            }
        ],
        "birthDate": "2009-04-23"
    },
    "endpoint": {
        "resourceType": "Endpoint",
        "status": "active",
        "id": "raccoon-dicom-web-server",
        "connectionType": {
            "system": "http://terminology.hl7.org/CodeSystem/endpoint-connection-type",
            "code": "dicom-wado-rs"
        },
        "payloadType": [
            {
                "text": "DICOM"
            }
        ],
        "payloadMimeType": [
            "application/dicom"
        ],
        "address": "http://127.0.0.1:8081/dicom-web"
    },
    "imagingStudy": {
        "resourceType": "ImagingStudy",
        "id": "2.25.921452385674878785383125926611838343798",
        "identifier": [
            {
                "use": "official",
                "system": "urn:dicom:uid",
                "value": "urn:oid:2.25.921452385674878785383125926611838343798"
            },
            {
                "use": "usual",
                "value": "P0GRI6"
            },
            {
                "use": "secondary",
                "value": "sFNFKAD"
            }
        ],
        "status": "unknown",
        "subject": {
            "reference": "Patient/IVRTET",
            "type": "Patient"
        },
        "started": "2002-05-21T08:42:15+08:00",
        "endpoint": [
            {
                "reference": "Endpoint/raccoon-dicom-web-server"
            }
        ],
        "series": [
            {
                "uid": "2.25.616382996894561885563915174666807235459",
                "number": 1,
                "modality": {
                    "system": "http://dicom.nema.org/resources/ontology/DCM",
                    "code": "CT"
                },
                "instance": [
                    {
                        "uid": "2.25.988470259620361154469529411448901373642",
                        "sopClass": {
                            "system": "urn:ietf:rfc:3986",
                            "code": "urn:oid:1.2.840.10008.5.1.4.1.1.7.4"
                        },
                        "number": 99
                    },
                    {
                        "uid": "2.25.357627366023504117375930986211602091815",
                        "sopClass": {
                            "system": "urn:ietf:rfc:3986",
                            "code": "urn:oid:1.2.840.10008.5.1.4.1.1.7.4"
                        },
                        "number": 98
                    },
                    {
                        "uid": "2.25.808400204550294104565032655636003604191",
                        "sopClass": {
                            "system": "urn:ietf:rfc:3986",
                            "code": "urn:oid:1.2.840.10008.5.1.4.1.1.7.4"
                        },
                        "number": 97
                    },
                    {
                        "uid": "2.25.784832450684656110743937412934743018671",
                        "sopClass": {
                            "system": "urn:ietf:rfc:3986",
                            "code": "urn:oid:1.2.840.10008.5.1.4.1.1.7.4"
                        },
                        "number": 96
                    },
                    {
                        "uid": "2.25.812915431051502031442301914349962263239",
                        "sopClass": {
                            "system": "urn:ietf:rfc:3986",
                            "code": "urn:oid:1.2.840.10008.5.1.4.1.1.7.4"
                        },
                        "number": 95
                    },
                    {
                        "uid": "2.25.172128101963102971000466394256780112811",
                        "sopClass": {
                            "system": "urn:ietf:rfc:3986",
                            "code": "urn:oid:1.2.840.10008.5.1.4.1.1.7.4"
                        },
                        "number": 94
                    },
                    {
                        "uid": "2.25.343219726126474665114560848976943146259",
                        "sopClass": {
                            "system": "urn:ietf:rfc:3986",
                            "code": "urn:oid:1.2.840.10008.5.1.4.1.1.7.4"
                        },
                        "number": 93
                    },
                    {
                        "uid": "2.25.160157902272978643142389706511707034953",
                        "sopClass": {
                            "system": "urn:ietf:rfc:3986",
                            "code": "urn:oid:1.2.840.10008.5.1.4.1.1.7.4"
                        },
                        "number": 92
                    },
                    {
                        "uid": "2.25.897561339380493280706924032980204777016",
                        "sopClass": {
                            "system": "urn:ietf:rfc:3986",
                            "code": "urn:oid:1.2.840.10008.5.1.4.1.1.7.4"
                        },
                        "number": 91
                    },
                    {
                        "uid": "2.25.195335301081849910243335450440893512079",
                        "sopClass": {
                            "system": "urn:ietf:rfc:3986",
                            "code": "urn:oid:1.2.840.10008.5.1.4.1.1.7.4"
                        },
                        "number": 90
                    },
                    {
                        "uid": "2.25.393720016158456982381977994957465276127",
                        "sopClass": {
                            "system": "urn:ietf:rfc:3986",
                            "code": "urn:oid:1.2.840.10008.5.1.4.1.1.7.4"
                        },
                        "number": 9
                    },
                    {
                        "uid": "2.25.751215899260575479333725071349946701523",
                        "sopClass": {
                            "system": "urn:ietf:rfc:3986",
                            "code": "urn:oid:1.2.840.10008.5.1.4.1.1.7.4"
                        },
                        "number": 89
                    },
                    {
                        "uid": "2.25.684309787801457034196004211772777367659",
                        "sopClass": {
                            "system": "urn:ietf:rfc:3986",
                            "code": "urn:oid:1.2.840.10008.5.1.4.1.1.7.4"
                        },
                        "number": 88
                    },
                    {
                        "uid": "2.25.492902885073112994588522277411110573642",
                        "sopClass": {
                            "system": "urn:ietf:rfc:3986",
                            "code": "urn:oid:1.2.840.10008.5.1.4.1.1.7.4"
                        },
                        "number": 87
                    },
                    {
                        "uid": "2.25.209184694959316861897071902086345058248",
                        "sopClass": {
                            "system": "urn:ietf:rfc:3986",
                            "code": "urn:oid:1.2.840.10008.5.1.4.1.1.7.4"
                        },
                        "number": 86
                    },
                    {
                        "uid": "2.25.737725236383303083581011146071462323318",
                        "sopClass": {
                            "system": "urn:ietf:rfc:3986",
                            "code": "urn:oid:1.2.840.10008.5.1.4.1.1.7.4"
                        },
                        "number": 85
                    },
                    {
                        "uid": "2.25.808910752614492099976989617668007175709",
                        "sopClass": {
                            "system": "urn:ietf:rfc:3986",
                            "code": "urn:oid:1.2.840.10008.5.1.4.1.1.7.4"
                        },
                        "number": 84
                    },
                    {
                        "uid": "2.25.474176247598724715846029363241313028937",
                        "sopClass": {
                            "system": "urn:ietf:rfc:3986",
                            "code": "urn:oid:1.2.840.10008.5.1.4.1.1.7.4"
                        },
                        "number": 83
                    },
                    {
                        "uid": "2.25.804088661583869956678481638263796706555",
                        "sopClass": {
                            "system": "urn:ietf:rfc:3986",
                            "code": "urn:oid:1.2.840.10008.5.1.4.1.1.7.4"
                        },
                        "number": 82
                    },
                    {
                        "uid": "2.25.123169402656885877722941218566038012485",
                        "sopClass": {
                            "system": "urn:ietf:rfc:3986",
                            "code": "urn:oid:1.2.840.10008.5.1.4.1.1.7.4"
                        },
                        "number": 81
                    },
                    {
                        "uid": "2.25.928335962379440261802240619756446085807",
                        "sopClass": {
                            "system": "urn:ietf:rfc:3986",
                            "code": "urn:oid:1.2.840.10008.5.1.4.1.1.7.4"
                        },
                        "number": 80
                    },
                    {
                        "uid": "2.25.246388455629608472377169111332334499218",
                        "sopClass": {
                            "system": "urn:ietf:rfc:3986",
                            "code": "urn:oid:1.2.840.10008.5.1.4.1.1.7.4"
                        },
                        "number": 8
                    },
                    {
                        "uid": "2.25.584498407884255636166141637226640328433",
                        "sopClass": {
                            "system": "urn:ietf:rfc:3986",
                            "code": "urn:oid:1.2.840.10008.5.1.4.1.1.7.4"
                        },
                        "number": 79
                    },
                    {
                        "uid": "2.25.995223814151494631413524252688418071085",
                        "sopClass": {
                            "system": "urn:ietf:rfc:3986",
                            "code": "urn:oid:1.2.840.10008.5.1.4.1.1.7.4"
                        },
                        "number": 78
                    },
                    {
                        "uid": "2.25.679356175946912504522352423510751409337",
                        "sopClass": {
                            "system": "urn:ietf:rfc:3986",
                            "code": "urn:oid:1.2.840.10008.5.1.4.1.1.7.4"
                        },
                        "number": 77
                    },
                    {
                        "uid": "2.25.870255481436314822184419644660269803549",
                        "sopClass": {
                            "system": "urn:ietf:rfc:3986",
                            "code": "urn:oid:1.2.840.10008.5.1.4.1.1.7.4"
                        },
                        "number": 76
                    },
                    {
                        "uid": "2.25.937950606609819508482558515080981578896",
                        "sopClass": {
                            "system": "urn:ietf:rfc:3986",
                            "code": "urn:oid:1.2.840.10008.5.1.4.1.1.7.4"
                        },
                        "number": 75
                    },
                    {
                        "uid": "2.25.188065895765516206310752669259446147224",
                        "sopClass": {
                            "system": "urn:ietf:rfc:3986",
                            "code": "urn:oid:1.2.840.10008.5.1.4.1.1.7.4"
                        },
                        "number": 74
                    },
                    {
                        "uid": "2.25.541667956244825352817616073672677819558",
                        "sopClass": {
                            "system": "urn:ietf:rfc:3986",
                            "code": "urn:oid:1.2.840.10008.5.1.4.1.1.7.4"
                        },
                        "number": 73
                    },
                    {
                        "uid": "2.25.412313881260960259970782990786086947438",
                        "sopClass": {
                            "system": "urn:ietf:rfc:3986",
                            "code": "urn:oid:1.2.840.10008.5.1.4.1.1.7.4"
                        },
                        "number": 72
                    },
                    {
                        "uid": "2.25.858591950197058805175863050310252018210",
                        "sopClass": {
                            "system": "urn:ietf:rfc:3986",
                            "code": "urn:oid:1.2.840.10008.5.1.4.1.1.7.4"
                        },
                        "number": 71
                    },
                    {
                        "uid": "2.25.387758552066542882687869494921521223417",
                        "sopClass": {
                            "system": "urn:ietf:rfc:3986",
                            "code": "urn:oid:1.2.840.10008.5.1.4.1.1.7.4"
                        },
                        "number": 70
                    },
                    {
                        "uid": "2.25.196799849375269813166642382332587259645",
                        "sopClass": {
                            "system": "urn:ietf:rfc:3986",
                            "code": "urn:oid:1.2.840.10008.5.1.4.1.1.7.4"
                        },
                        "number": 7
                    },
                    {
                        "uid": "2.25.968746068611046181531583414771868152237",
                        "sopClass": {
                            "system": "urn:ietf:rfc:3986",
                            "code": "urn:oid:1.2.840.10008.5.1.4.1.1.7.4"
                        },
                        "number": 69
                    },
                    {
                        "uid": "2.25.749235644482326285377069591209196570533",
                        "sopClass": {
                            "system": "urn:ietf:rfc:3986",
                            "code": "urn:oid:1.2.840.10008.5.1.4.1.1.7.4"
                        },
                        "number": 68
                    },
                    {
                        "uid": "2.25.128678490148917980356585648967104630621",
                        "sopClass": {
                            "system": "urn:ietf:rfc:3986",
                            "code": "urn:oid:1.2.840.10008.5.1.4.1.1.7.4"
                        },
                        "number": 67
                    },
                    {
                        "uid": "2.25.849927853599022078324535126688972022064",
                        "sopClass": {
                            "system": "urn:ietf:rfc:3986",
                            "code": "urn:oid:1.2.840.10008.5.1.4.1.1.7.4"
                        },
                        "number": 66
                    },
                    {
                        "uid": "2.25.136401220606119258959553578032036797383",
                        "sopClass": {
                            "system": "urn:ietf:rfc:3986",
                            "code": "urn:oid:1.2.840.10008.5.1.4.1.1.7.4"
                        },
                        "number": 65
                    },
                    {
                        "uid": "2.25.814325270176263627336186570689245537296",
                        "sopClass": {
                            "system": "urn:ietf:rfc:3986",
                            "code": "urn:oid:1.2.840.10008.5.1.4.1.1.7.4"
                        },
                        "number": 64
                    },
                    {
                        "uid": "2.25.445423910695009665697468079321999615051",
                        "sopClass": {
                            "system": "urn:ietf:rfc:3986",
                            "code": "urn:oid:1.2.840.10008.5.1.4.1.1.7.4"
                        },
                        "number": 63
                    },
                    {
                        "uid": "2.25.366733294552507144830998005243090001194",
                        "sopClass": {
                            "system": "urn:ietf:rfc:3986",
                            "code": "urn:oid:1.2.840.10008.5.1.4.1.1.7.4"
                        },
                        "number": 62
                    },
                    {
                        "uid": "2.25.448878750481214138813676759937964790740",
                        "sopClass": {
                            "system": "urn:ietf:rfc:3986",
                            "code": "urn:oid:1.2.840.10008.5.1.4.1.1.7.4"
                        },
                        "number": 61
                    },
                    {
                        "uid": "2.25.265555378554426684449089536956475207764",
                        "sopClass": {
                            "system": "urn:ietf:rfc:3986",
                            "code": "urn:oid:1.2.840.10008.5.1.4.1.1.7.4"
                        },
                        "number": 60
                    },
                    {
                        "uid": "2.25.605435392041408666661743257436936123145",
                        "sopClass": {
                            "system": "urn:ietf:rfc:3986",
                            "code": "urn:oid:1.2.840.10008.5.1.4.1.1.7.4"
                        },
                        "number": 6
                    },
                    {
                        "uid": "2.25.507208890987626429121234080441813445844",
                        "sopClass": {
                            "system": "urn:ietf:rfc:3986",
                            "code": "urn:oid:1.2.840.10008.5.1.4.1.1.7.4"
                        },
                        "number": 59
                    },
                    {
                        "uid": "2.25.691881003226380443114597660736304149206",
                        "sopClass": {
                            "system": "urn:ietf:rfc:3986",
                            "code": "urn:oid:1.2.840.10008.5.1.4.1.1.7.4"
                        },
                        "number": 58
                    },
                    {
                        "uid": "2.25.307114620946376420177274096336427674394",
                        "sopClass": {
                            "system": "urn:ietf:rfc:3986",
                            "code": "urn:oid:1.2.840.10008.5.1.4.1.1.7.4"
                        },
                        "number": 57
                    },
                    {
                        "uid": "2.25.521306411559992665194450648669615556370",
                        "sopClass": {
                            "system": "urn:ietf:rfc:3986",
                            "code": "urn:oid:1.2.840.10008.5.1.4.1.1.7.4"
                        },
                        "number": 56
                    },
                    {
                        "uid": "2.25.576310017341024275622671827562692812703",
                        "sopClass": {
                            "system": "urn:ietf:rfc:3986",
                            "code": "urn:oid:1.2.840.10008.5.1.4.1.1.7.4"
                        },
                        "number": 55
                    },
                    {
                        "uid": "2.25.898915674284438566283851583369421135666",
                        "sopClass": {
                            "system": "urn:ietf:rfc:3986",
                            "code": "urn:oid:1.2.840.10008.5.1.4.1.1.7.4"
                        },
                        "number": 54
                    },
                    {
                        "uid": "2.25.603388312061108821376360780071738807467",
                        "sopClass": {
                            "system": "urn:ietf:rfc:3986",
                            "code": "urn:oid:1.2.840.10008.5.1.4.1.1.7.4"
                        },
                        "number": 53
                    },
                    {
                        "uid": "2.25.394566948967789957547150680997392714931",
                        "sopClass": {
                            "system": "urn:ietf:rfc:3986",
                            "code": "urn:oid:1.2.840.10008.5.1.4.1.1.7.4"
                        },
                        "number": 52
                    },
                    {
                        "uid": "2.25.915366716314514905961652275956676663305",
                        "sopClass": {
                            "system": "urn:ietf:rfc:3986",
                            "code": "urn:oid:1.2.840.10008.5.1.4.1.1.7.4"
                        },
                        "number": 51
                    },
                    {
                        "uid": "2.25.748709648456869157054196064749036760403",
                        "sopClass": {
                            "system": "urn:ietf:rfc:3986",
                            "code": "urn:oid:1.2.840.10008.5.1.4.1.1.7.4"
                        },
                        "number": 50
                    },
                    {
                        "uid": "2.25.226568836174635271376038094096872749510",
                        "sopClass": {
                            "system": "urn:ietf:rfc:3986",
                            "code": "urn:oid:1.2.840.10008.5.1.4.1.1.7.4"
                        },
                        "number": 5
                    },
                    {
                        "uid": "2.25.758494589021195458622718729690018567147",
                        "sopClass": {
                            "system": "urn:ietf:rfc:3986",
                            "code": "urn:oid:1.2.840.10008.5.1.4.1.1.7.4"
                        },
                        "number": 49
                    },
                    {
                        "uid": "2.25.472965458315681850063157900106365301823",
                        "sopClass": {
                            "system": "urn:ietf:rfc:3986",
                            "code": "urn:oid:1.2.840.10008.5.1.4.1.1.7.4"
                        },
                        "number": 48
                    },
                    {
                        "uid": "2.25.884355533005473217650728195650612997017",
                        "sopClass": {
                            "system": "urn:ietf:rfc:3986",
                            "code": "urn:oid:1.2.840.10008.5.1.4.1.1.7.4"
                        },
                        "number": 47
                    },
                    {
                        "uid": "2.25.395682786182882330993499539435419172579",
                        "sopClass": {
                            "system": "urn:ietf:rfc:3986",
                            "code": "urn:oid:1.2.840.10008.5.1.4.1.1.7.4"
                        },
                        "number": 46
                    },
                    {
                        "uid": "2.25.200357899519951403750493669047598197100",
                        "sopClass": {
                            "system": "urn:ietf:rfc:3986",
                            "code": "urn:oid:1.2.840.10008.5.1.4.1.1.7.4"
                        },
                        "number": 45
                    },
                    {
                        "uid": "2.25.588671568955718983855463449250100487092",
                        "sopClass": {
                            "system": "urn:ietf:rfc:3986",
                            "code": "urn:oid:1.2.840.10008.5.1.4.1.1.7.4"
                        },
                        "number": 44
                    },
                    {
                        "uid": "2.25.324649701020723847024522950449977916213",
                        "sopClass": {
                            "system": "urn:ietf:rfc:3986",
                            "code": "urn:oid:1.2.840.10008.5.1.4.1.1.7.4"
                        },
                        "number": 43
                    },
                    {
                        "uid": "2.25.819415121147039090400655023437907667430",
                        "sopClass": {
                            "system": "urn:ietf:rfc:3986",
                            "code": "urn:oid:1.2.840.10008.5.1.4.1.1.7.4"
                        },
                        "number": 42
                    },
                    {
                        "uid": "2.25.716926100806548857482870523418522124615",
                        "sopClass": {
                            "system": "urn:ietf:rfc:3986",
                            "code": "urn:oid:1.2.840.10008.5.1.4.1.1.7.4"
                        },
                        "number": 41
                    },
                    {
                        "uid": "2.25.273730275577609918344372083426971206269",
                        "sopClass": {
                            "system": "urn:ietf:rfc:3986",
                            "code": "urn:oid:1.2.840.10008.5.1.4.1.1.7.4"
                        },
                        "number": 40
                    },
                    {
                        "uid": "2.25.794790978728179003323859956502039376539",
                        "sopClass": {
                            "system": "urn:ietf:rfc:3986",
                            "code": "urn:oid:1.2.840.10008.5.1.4.1.1.7.4"
                        },
                        "number": 4
                    },
                    {
                        "uid": "2.25.465452284955411601797145214598086430352",
                        "sopClass": {
                            "system": "urn:ietf:rfc:3986",
                            "code": "urn:oid:1.2.840.10008.5.1.4.1.1.7.4"
                        },
                        "number": 39
                    },
                    {
                        "uid": "2.25.599580949922775953754496415714884221769",
                        "sopClass": {
                            "system": "urn:ietf:rfc:3986",
                            "code": "urn:oid:1.2.840.10008.5.1.4.1.1.7.4"
                        },
                        "number": 38
                    },
                    {
                        "uid": "2.25.193406912992432131049963773076209815850",
                        "sopClass": {
                            "system": "urn:ietf:rfc:3986",
                            "code": "urn:oid:1.2.840.10008.5.1.4.1.1.7.4"
                        },
                        "number": 37
                    },
                    {
                        "uid": "2.25.175043606279450472657018241276963137229",
                        "sopClass": {
                            "system": "urn:ietf:rfc:3986",
                            "code": "urn:oid:1.2.840.10008.5.1.4.1.1.7.4"
                        },
                        "number": 36
                    },
                    {
                        "uid": "2.25.972199239179200825495372728985884807836",
                        "sopClass": {
                            "system": "urn:ietf:rfc:3986",
                            "code": "urn:oid:1.2.840.10008.5.1.4.1.1.7.4"
                        },
                        "number": 35
                    },
                    {
                        "uid": "2.25.381314476742599415281328768472328924990",
                        "sopClass": {
                            "system": "urn:ietf:rfc:3986",
                            "code": "urn:oid:1.2.840.10008.5.1.4.1.1.7.4"
                        },
                        "number": 34
                    },
                    {
                        "uid": "2.25.380682275466103206634308081647330057139",
                        "sopClass": {
                            "system": "urn:ietf:rfc:3986",
                            "code": "urn:oid:1.2.840.10008.5.1.4.1.1.7.4"
                        },
                        "number": 33
                    },
                    {
                        "uid": "2.25.566417104645317015171787288634535057178",
                        "sopClass": {
                            "system": "urn:ietf:rfc:3986",
                            "code": "urn:oid:1.2.840.10008.5.1.4.1.1.7.4"
                        },
                        "number": 32
                    },
                    {
                        "uid": "2.25.499055930864841835655768921927440423315",
                        "sopClass": {
                            "system": "urn:ietf:rfc:3986",
                            "code": "urn:oid:1.2.840.10008.5.1.4.1.1.7.4"
                        },
                        "number": 31
                    },
                    {
                        "uid": "2.25.466626507293015840015129232914908677497",
                        "sopClass": {
                            "system": "urn:ietf:rfc:3986",
                            "code": "urn:oid:1.2.840.10008.5.1.4.1.1.7.4"
                        },
                        "number": 300
                    },
                    {
                        "uid": "2.25.723623318845197951985089278864061627202",
                        "sopClass": {
                            "system": "urn:ietf:rfc:3986",
                            "code": "urn:oid:1.2.840.10008.5.1.4.1.1.7.4"
                        },
                        "number": 30
                    },
                    {
                        "uid": "2.25.725204682518272864152919643775583026873",
                        "sopClass": {
                            "system": "urn:ietf:rfc:3986",
                            "code": "urn:oid:1.2.840.10008.5.1.4.1.1.7.4"
                        },
                        "number": 3
                    },
                    {
                        "uid": "2.25.745624750152144826273139074916568501041",
                        "sopClass": {
                            "system": "urn:ietf:rfc:3986",
                            "code": "urn:oid:1.2.840.10008.5.1.4.1.1.7.4"
                        },
                        "number": 299
                    },
                    {
                        "uid": "2.25.899420463696590819511638548487380032624",
                        "sopClass": {
                            "system": "urn:ietf:rfc:3986",
                            "code": "urn:oid:1.2.840.10008.5.1.4.1.1.7.4"
                        },
                        "number": 298
                    },
                    {
                        "uid": "2.25.930059877178521378893563131999420926358",
                        "sopClass": {
                            "system": "urn:ietf:rfc:3986",
                            "code": "urn:oid:1.2.840.10008.5.1.4.1.1.7.4"
                        },
                        "number": 297
                    },
                    {
                        "uid": "2.25.443604904645824331412994246256744580278",
                        "sopClass": {
                            "system": "urn:ietf:rfc:3986",
                            "code": "urn:oid:1.2.840.10008.5.1.4.1.1.7.4"
                        },
                        "number": 296
                    },
                    {
                        "uid": "2.25.749835320022135993622444853277936204452",
                        "sopClass": {
                            "system": "urn:ietf:rfc:3986",
                            "code": "urn:oid:1.2.840.10008.5.1.4.1.1.7.4"
                        },
                        "number": 295
                    },
                    {
                        "uid": "2.25.475888685232511135162079771244084268092",
                        "sopClass": {
                            "system": "urn:ietf:rfc:3986",
                            "code": "urn:oid:1.2.840.10008.5.1.4.1.1.7.4"
                        },
                        "number": 294
                    },
                    {
                        "uid": "2.25.906297223483498945311204621755257585879",
                        "sopClass": {
                            "system": "urn:ietf:rfc:3986",
                            "code": "urn:oid:1.2.840.10008.5.1.4.1.1.7.4"
                        },
                        "number": 293
                    },
                    {
                        "uid": "2.25.183414826818672561650560238883477058608",
                        "sopClass": {
                            "system": "urn:ietf:rfc:3986",
                            "code": "urn:oid:1.2.840.10008.5.1.4.1.1.7.4"
                        },
                        "number": 292
                    },
                    {
                        "uid": "2.25.889724977924223001347964796833275994963",
                        "sopClass": {
                            "system": "urn:ietf:rfc:3986",
                            "code": "urn:oid:1.2.840.10008.5.1.4.1.1.7.4"
                        },
                        "number": 291
                    },
                    {
                        "uid": "2.25.550339373970500959057302168046747034066",
                        "sopClass": {
                            "system": "urn:ietf:rfc:3986",
                            "code": "urn:oid:1.2.840.10008.5.1.4.1.1.7.4"
                        },
                        "number": 290
                    },
                    {
                        "uid": "2.25.293747774097829740872581006724981974843",
                        "sopClass": {
                            "system": "urn:ietf:rfc:3986",
                            "code": "urn:oid:1.2.840.10008.5.1.4.1.1.7.4"
                        },
                        "number": 29
                    },
                    {
                        "uid": "2.25.730086557863359753855796666602353240457",
                        "sopClass": {
                            "system": "urn:ietf:rfc:3986",
                            "code": "urn:oid:1.2.840.10008.5.1.4.1.1.7.4"
                        },
                        "number": 289
                    },
                    {
                        "uid": "2.25.720319483779871324551401671930796924319",
                        "sopClass": {
                            "system": "urn:ietf:rfc:3986",
                            "code": "urn:oid:1.2.840.10008.5.1.4.1.1.7.4"
                        },
                        "number": 288
                    },
                    {
                        "uid": "2.25.924036927391766968371507602129521672804",
                        "sopClass": {
                            "system": "urn:ietf:rfc:3986",
                            "code": "urn:oid:1.2.840.10008.5.1.4.1.1.7.4"
                        },
                        "number": 287
                    },
                    {
                        "uid": "2.25.872825965733521277700113195363839821744",
                        "sopClass": {
                            "system": "urn:ietf:rfc:3986",
                            "code": "urn:oid:1.2.840.10008.5.1.4.1.1.7.4"
                        },
                        "number": 286
                    },
                    {
                        "uid": "2.25.103953820957157057330862675973300720832",
                        "sopClass": {
                            "system": "urn:ietf:rfc:3986",
                            "code": "urn:oid:1.2.840.10008.5.1.4.1.1.7.4"
                        },
                        "number": 285
                    },
                    {
                        "uid": "2.25.243182937487375285340689676613457960269",
                        "sopClass": {
                            "system": "urn:ietf:rfc:3986",
                            "code": "urn:oid:1.2.840.10008.5.1.4.1.1.7.4"
                        },
                        "number": 284
                    },
                    {
                        "uid": "2.25.493571675525848132381747088645849624484",
                        "sopClass": {
                            "system": "urn:ietf:rfc:3986",
                            "code": "urn:oid:1.2.840.10008.5.1.4.1.1.7.4"
                        },
                        "number": 283
                    },
                    {
                        "uid": "2.25.423507130401555734698244850478430187447",
                        "sopClass": {
                            "system": "urn:ietf:rfc:3986",
                            "code": "urn:oid:1.2.840.10008.5.1.4.1.1.7.4"
                        },
                        "number": 282
                    },
                    {
                        "uid": "2.25.264912768330257183546176184300232806421",
                        "sopClass": {
                            "system": "urn:ietf:rfc:3986",
                            "code": "urn:oid:1.2.840.10008.5.1.4.1.1.7.4"
                        },
                        "number": 281
                    },
                    {
                        "uid": "2.25.809779754731884026786744156478990090414",
                        "sopClass": {
                            "system": "urn:ietf:rfc:3986",
                            "code": "urn:oid:1.2.840.10008.5.1.4.1.1.7.4"
                        },
                        "number": 280
                    },
                    {
                        "uid": "2.25.228583997489508556529052125299457136028",
                        "sopClass": {
                            "system": "urn:ietf:rfc:3986",
                            "code": "urn:oid:1.2.840.10008.5.1.4.1.1.7.4"
                        },
                        "number": 28
                    },
                    {
                        "uid": "2.25.265652385270379501873915125505161812126",
                        "sopClass": {
                            "system": "urn:ietf:rfc:3986",
                            "code": "urn:oid:1.2.840.10008.5.1.4.1.1.7.4"
                        },
                        "number": 279
                    },
                    {
                        "uid": "2.25.374883590912878288339605502250930749190",
                        "sopClass": {
                            "system": "urn:ietf:rfc:3986",
                            "code": "urn:oid:1.2.840.10008.5.1.4.1.1.7.4"
                        },
                        "number": 278
                    },
                    {
                        "uid": "2.25.479862521378178452996812403101585197896",
                        "sopClass": {
                            "system": "urn:ietf:rfc:3986",
                            "code": "urn:oid:1.2.840.10008.5.1.4.1.1.7.4"
                        },
                        "number": 277
                    },
                    {
                        "uid": "2.25.327101561372218821776054610603369908156",
                        "sopClass": {
                            "system": "urn:ietf:rfc:3986",
                            "code": "urn:oid:1.2.840.10008.5.1.4.1.1.7.4"
                        },
                        "number": 276
                    },
                    {
                        "uid": "2.25.259911812682059443209212918556047848359",
                        "sopClass": {
                            "system": "urn:ietf:rfc:3986",
                            "code": "urn:oid:1.2.840.10008.5.1.4.1.1.7.4"
                        },
                        "number": 275
                    },
                    {
                        "uid": "2.25.167198968369872990274823624653663955364",
                        "sopClass": {
                            "system": "urn:ietf:rfc:3986",
                            "code": "urn:oid:1.2.840.10008.5.1.4.1.1.7.4"
                        },
                        "number": 274
                    },
                    {
                        "uid": "2.25.209069477939392305506352714403159235270",
                        "sopClass": {
                            "system": "urn:ietf:rfc:3986",
                            "code": "urn:oid:1.2.840.10008.5.1.4.1.1.7.4"
                        },
                        "number": 273
                    },
                    {
                        "uid": "2.25.440417583152811741206804160057590067630",
                        "sopClass": {
                            "system": "urn:ietf:rfc:3986",
                            "code": "urn:oid:1.2.840.10008.5.1.4.1.1.7.4"
                        },
                        "number": 272
                    },
                    {
                        "uid": "2.25.822408006149943635597921481859486289072",
                        "sopClass": {
                            "system": "urn:ietf:rfc:3986",
                            "code": "urn:oid:1.2.840.10008.5.1.4.1.1.7.4"
                        },
                        "number": 271
                    },
                    {
                        "uid": "2.25.127180423413030410618921888312575223783",
                        "sopClass": {
                            "system": "urn:ietf:rfc:3986",
                            "code": "urn:oid:1.2.840.10008.5.1.4.1.1.7.4"
                        },
                        "number": 270
                    },
                    {
                        "uid": "2.25.468724164478907323951735774489278651572",
                        "sopClass": {
                            "system": "urn:ietf:rfc:3986",
                            "code": "urn:oid:1.2.840.10008.5.1.4.1.1.7.4"
                        },
                        "number": 27
                    },
                    {
                        "uid": "2.25.981817245014385038811445792227729365261",
                        "sopClass": {
                            "system": "urn:ietf:rfc:3986",
                            "code": "urn:oid:1.2.840.10008.5.1.4.1.1.7.4"
                        },
                        "number": 269
                    },
                    {
                        "uid": "2.25.552967730151317404030754151451921122422",
                        "sopClass": {
                            "system": "urn:ietf:rfc:3986",
                            "code": "urn:oid:1.2.840.10008.5.1.4.1.1.7.4"
                        },
                        "number": 268
                    },
                    {
                        "uid": "2.25.636151710210855827249388574986081509947",
                        "sopClass": {
                            "system": "urn:ietf:rfc:3986",
                            "code": "urn:oid:1.2.840.10008.5.1.4.1.1.7.4"
                        },
                        "number": 267
                    },
                    {
                        "uid": "2.25.819223311781540372775353789330931374537",
                        "sopClass": {
                            "system": "urn:ietf:rfc:3986",
                            "code": "urn:oid:1.2.840.10008.5.1.4.1.1.7.4"
                        },
                        "number": 266
                    },
                    {
                        "uid": "2.25.760865277990412304064100875536861538343",
                        "sopClass": {
                            "system": "urn:ietf:rfc:3986",
                            "code": "urn:oid:1.2.840.10008.5.1.4.1.1.7.4"
                        },
                        "number": 265
                    },
                    {
                        "uid": "2.25.343746005183847326963442515044458152925",
                        "sopClass": {
                            "system": "urn:ietf:rfc:3986",
                            "code": "urn:oid:1.2.840.10008.5.1.4.1.1.7.4"
                        },
                        "number": 264
                    },
                    {
                        "uid": "2.25.821115907942231336047923983803787152603",
                        "sopClass": {
                            "system": "urn:ietf:rfc:3986",
                            "code": "urn:oid:1.2.840.10008.5.1.4.1.1.7.4"
                        },
                        "number": 263
                    },
                    {
                        "uid": "2.25.417028656280416449695046845158078680280",
                        "sopClass": {
                            "system": "urn:ietf:rfc:3986",
                            "code": "urn:oid:1.2.840.10008.5.1.4.1.1.7.4"
                        },
                        "number": 262
                    },
                    {
                        "uid": "2.25.193847028523460293947701211806149738692",
                        "sopClass": {
                            "system": "urn:ietf:rfc:3986",
                            "code": "urn:oid:1.2.840.10008.5.1.4.1.1.7.4"
                        },
                        "number": 261
                    },
                    {
                        "uid": "2.25.507395836922199229800377992785173096351",
                        "sopClass": {
                            "system": "urn:ietf:rfc:3986",
                            "code": "urn:oid:1.2.840.10008.5.1.4.1.1.7.4"
                        },
                        "number": 260
                    },
                    {
                        "uid": "2.25.409375873067592846913780036314694491545",
                        "sopClass": {
                            "system": "urn:ietf:rfc:3986",
                            "code": "urn:oid:1.2.840.10008.5.1.4.1.1.7.4"
                        },
                        "number": 26
                    },
                    {
                        "uid": "2.25.764024683707317767934610135034095415076",
                        "sopClass": {
                            "system": "urn:ietf:rfc:3986",
                            "code": "urn:oid:1.2.840.10008.5.1.4.1.1.7.4"
                        },
                        "number": 259
                    },
                    {
                        "uid": "2.25.696414755988897654021906048686732081737",
                        "sopClass": {
                            "system": "urn:ietf:rfc:3986",
                            "code": "urn:oid:1.2.840.10008.5.1.4.1.1.7.4"
                        },
                        "number": 258
                    },
                    {
                        "uid": "2.25.109833441258733032826352876138102904087",
                        "sopClass": {
                            "system": "urn:ietf:rfc:3986",
                            "code": "urn:oid:1.2.840.10008.5.1.4.1.1.7.4"
                        },
                        "number": 257
                    },
                    {
                        "uid": "2.25.851395579987203310989034758074443126241",
                        "sopClass": {
                            "system": "urn:ietf:rfc:3986",
                            "code": "urn:oid:1.2.840.10008.5.1.4.1.1.7.4"
                        },
                        "number": 256
                    },
                    {
                        "uid": "2.25.339538143726765148163211218277290319960",
                        "sopClass": {
                            "system": "urn:ietf:rfc:3986",
                            "code": "urn:oid:1.2.840.10008.5.1.4.1.1.7.4"
                        },
                        "number": 255
                    },
                    {
                        "uid": "2.25.829578917124176876919003873185170911665",
                        "sopClass": {
                            "system": "urn:ietf:rfc:3986",
                            "code": "urn:oid:1.2.840.10008.5.1.4.1.1.7.4"
                        },
                        "number": 254
                    },
                    {
                        "uid": "2.25.189253738939233965955583887107624713620",
                        "sopClass": {
                            "system": "urn:ietf:rfc:3986",
                            "code": "urn:oid:1.2.840.10008.5.1.4.1.1.7.4"
                        },
                        "number": 253
                    },
                    {
                        "uid": "2.25.843322657599967762957457018737426350839",
                        "sopClass": {
                            "system": "urn:ietf:rfc:3986",
                            "code": "urn:oid:1.2.840.10008.5.1.4.1.1.7.4"
                        },
                        "number": 252
                    },
                    {
                        "uid": "2.25.950471313413148492961030858416871915940",
                        "sopClass": {
                            "system": "urn:ietf:rfc:3986",
                            "code": "urn:oid:1.2.840.10008.5.1.4.1.1.7.4"
                        },
                        "number": 251
                    },
                    {
                        "uid": "2.25.711494910073979631535889256327013810662",
                        "sopClass": {
                            "system": "urn:ietf:rfc:3986",
                            "code": "urn:oid:1.2.840.10008.5.1.4.1.1.7.4"
                        },
                        "number": 250
                    },
                    {
                        "uid": "2.25.405593640530227403275660703427290966367",
                        "sopClass": {
                            "system": "urn:ietf:rfc:3986",
                            "code": "urn:oid:1.2.840.10008.5.1.4.1.1.7.4"
                        },
                        "number": 25
                    },
                    {
                        "uid": "2.25.257730861489044454327109094197666217192",
                        "sopClass": {
                            "system": "urn:ietf:rfc:3986",
                            "code": "urn:oid:1.2.840.10008.5.1.4.1.1.7.4"
                        },
                        "number": 249
                    },
                    {
                        "uid": "2.25.403055878561464768057525999626507129567",
                        "sopClass": {
                            "system": "urn:ietf:rfc:3986",
                            "code": "urn:oid:1.2.840.10008.5.1.4.1.1.7.4"
                        },
                        "number": 248
                    },
                    {
                        "uid": "2.25.935061954559235724505067129708229491112",
                        "sopClass": {
                            "system": "urn:ietf:rfc:3986",
                            "code": "urn:oid:1.2.840.10008.5.1.4.1.1.7.4"
                        },
                        "number": 247
                    },
                    {
                        "uid": "2.25.733726601363245832030538038673388715751",
                        "sopClass": {
                            "system": "urn:ietf:rfc:3986",
                            "code": "urn:oid:1.2.840.10008.5.1.4.1.1.7.4"
                        },
                        "number": 246
                    },
                    {
                        "uid": "2.25.690593720312609330065880000018505259775",
                        "sopClass": {
                            "system": "urn:ietf:rfc:3986",
                            "code": "urn:oid:1.2.840.10008.5.1.4.1.1.7.4"
                        },
                        "number": 245
                    },
                    {
                        "uid": "2.25.184855670952994696535038355591349003192",
                        "sopClass": {
                            "system": "urn:ietf:rfc:3986",
                            "code": "urn:oid:1.2.840.10008.5.1.4.1.1.7.4"
                        },
                        "number": 244
                    },
                    {
                        "uid": "2.25.259003380410981719812764810784796305087",
                        "sopClass": {
                            "system": "urn:ietf:rfc:3986",
                            "code": "urn:oid:1.2.840.10008.5.1.4.1.1.7.4"
                        },
                        "number": 243
                    },
                    {
                        "uid": "2.25.593375869518357338330935469482174396686",
                        "sopClass": {
                            "system": "urn:ietf:rfc:3986",
                            "code": "urn:oid:1.2.840.10008.5.1.4.1.1.7.4"
                        },
                        "number": 242
                    },
                    {
                        "uid": "2.25.483127272534339080521842254835111394637",
                        "sopClass": {
                            "system": "urn:ietf:rfc:3986",
                            "code": "urn:oid:1.2.840.10008.5.1.4.1.1.7.4"
                        },
                        "number": 241
                    },
                    {
                        "uid": "2.25.347180800340078569084844093910418375338",
                        "sopClass": {
                            "system": "urn:ietf:rfc:3986",
                            "code": "urn:oid:1.2.840.10008.5.1.4.1.1.7.4"
                        },
                        "number": 240
                    },
                    {
                        "uid": "2.25.495863643836347643271015533384990056573",
                        "sopClass": {
                            "system": "urn:ietf:rfc:3986",
                            "code": "urn:oid:1.2.840.10008.5.1.4.1.1.7.4"
                        },
                        "number": 24
                    },
                    {
                        "uid": "2.25.715695749512168915985502524510175563944",
                        "sopClass": {
                            "system": "urn:ietf:rfc:3986",
                            "code": "urn:oid:1.2.840.10008.5.1.4.1.1.7.4"
                        },
                        "number": 239
                    },
                    {
                        "uid": "2.25.463692989176097147636591587902327454479",
                        "sopClass": {
                            "system": "urn:ietf:rfc:3986",
                            "code": "urn:oid:1.2.840.10008.5.1.4.1.1.7.4"
                        },
                        "number": 238
                    },
                    {
                        "uid": "2.25.298262780887811208306787411427247791027",
                        "sopClass": {
                            "system": "urn:ietf:rfc:3986",
                            "code": "urn:oid:1.2.840.10008.5.1.4.1.1.7.4"
                        },
                        "number": 237
                    },
                    {
                        "uid": "2.25.146655572676194278150935216425164054410",
                        "sopClass": {
                            "system": "urn:ietf:rfc:3986",
                            "code": "urn:oid:1.2.840.10008.5.1.4.1.1.7.4"
                        },
                        "number": 236
                    },
                    {
                        "uid": "2.25.651620418910456044810614877051593189990",
                        "sopClass": {
                            "system": "urn:ietf:rfc:3986",
                            "code": "urn:oid:1.2.840.10008.5.1.4.1.1.7.4"
                        },
                        "number": 235
                    },
                    {
                        "uid": "2.25.389878042445556216509630905887578767570",
                        "sopClass": {
                            "system": "urn:ietf:rfc:3986",
                            "code": "urn:oid:1.2.840.10008.5.1.4.1.1.7.4"
                        },
                        "number": 234
                    },
                    {
                        "uid": "2.25.215302564059203942913709169268975473083",
                        "sopClass": {
                            "system": "urn:ietf:rfc:3986",
                            "code": "urn:oid:1.2.840.10008.5.1.4.1.1.7.4"
                        },
                        "number": 233
                    },
                    {
                        "uid": "2.25.806844688282823661065787136758536759054",
                        "sopClass": {
                            "system": "urn:ietf:rfc:3986",
                            "code": "urn:oid:1.2.840.10008.5.1.4.1.1.7.4"
                        },
                        "number": 232
                    },
                    {
                        "uid": "2.25.661477613072333987540304142837594960011",
                        "sopClass": {
                            "system": "urn:ietf:rfc:3986",
                            "code": "urn:oid:1.2.840.10008.5.1.4.1.1.7.4"
                        },
                        "number": 231
                    },
                    {
                        "uid": "2.25.163041848837333590273559816389800579565",
                        "sopClass": {
                            "system": "urn:ietf:rfc:3986",
                            "code": "urn:oid:1.2.840.10008.5.1.4.1.1.7.4"
                        },
                        "number": 230
                    },
                    {
                        "uid": "2.25.350468330496366174916744032582365858132",
                        "sopClass": {
                            "system": "urn:ietf:rfc:3986",
                            "code": "urn:oid:1.2.840.10008.5.1.4.1.1.7.4"
                        },
                        "number": 23
                    },
                    {
                        "uid": "2.25.966347362481032732035314260607486014071",
                        "sopClass": {
                            "system": "urn:ietf:rfc:3986",
                            "code": "urn:oid:1.2.840.10008.5.1.4.1.1.7.4"
                        },
                        "number": 229
                    },
                    {
                        "uid": "2.25.218605260957219662442419852123501939237",
                        "sopClass": {
                            "system": "urn:ietf:rfc:3986",
                            "code": "urn:oid:1.2.840.10008.5.1.4.1.1.7.4"
                        },
                        "number": 228
                    },
                    {
                        "uid": "2.25.535418178739800617882386987343819759778",
                        "sopClass": {
                            "system": "urn:ietf:rfc:3986",
                            "code": "urn:oid:1.2.840.10008.5.1.4.1.1.7.4"
                        },
                        "number": 227
                    },
                    {
                        "uid": "2.25.901138517433949937780169448988193253606",
                        "sopClass": {
                            "system": "urn:ietf:rfc:3986",
                            "code": "urn:oid:1.2.840.10008.5.1.4.1.1.7.4"
                        },
                        "number": 226
                    },
                    {
                        "uid": "2.25.985613344485190186842974019326439354137",
                        "sopClass": {
                            "system": "urn:ietf:rfc:3986",
                            "code": "urn:oid:1.2.840.10008.5.1.4.1.1.7.4"
                        },
                        "number": 225
                    },
                    {
                        "uid": "2.25.348454035319010170370340894425835741300",
                        "sopClass": {
                            "system": "urn:ietf:rfc:3986",
                            "code": "urn:oid:1.2.840.10008.5.1.4.1.1.7.4"
                        },
                        "number": 224
                    },
                    {
                        "uid": "2.25.773682613602826755276513984783873665011",
                        "sopClass": {
                            "system": "urn:ietf:rfc:3986",
                            "code": "urn:oid:1.2.840.10008.5.1.4.1.1.7.4"
                        },
                        "number": 223
                    },
                    {
                        "uid": "2.25.967807273279106787871148378417212468348",
                        "sopClass": {
                            "system": "urn:ietf:rfc:3986",
                            "code": "urn:oid:1.2.840.10008.5.1.4.1.1.7.4"
                        },
                        "number": 222
                    },
                    {
                        "uid": "2.25.339464563184536747229744080879779332426",
                        "sopClass": {
                            "system": "urn:ietf:rfc:3986",
                            "code": "urn:oid:1.2.840.10008.5.1.4.1.1.7.4"
                        },
                        "number": 221
                    },
                    {
                        "uid": "2.25.310712232843081627324184167041535722023",
                        "sopClass": {
                            "system": "urn:ietf:rfc:3986",
                            "code": "urn:oid:1.2.840.10008.5.1.4.1.1.7.4"
                        },
                        "number": 220
                    },
                    {
                        "uid": "2.25.920167422194828351764031899769081468498",
                        "sopClass": {
                            "system": "urn:ietf:rfc:3986",
                            "code": "urn:oid:1.2.840.10008.5.1.4.1.1.7.4"
                        },
                        "number": 22
                    },
                    {
                        "uid": "2.25.957618116044481186634824224437884315239",
                        "sopClass": {
                            "system": "urn:ietf:rfc:3986",
                            "code": "urn:oid:1.2.840.10008.5.1.4.1.1.7.4"
                        },
                        "number": 219
                    },
                    {
                        "uid": "2.25.560779295675411772527786826667276521322",
                        "sopClass": {
                            "system": "urn:ietf:rfc:3986",
                            "code": "urn:oid:1.2.840.10008.5.1.4.1.1.7.4"
                        },
                        "number": 218
                    },
                    {
                        "uid": "2.25.132903856874131380555761937219647319200",
                        "sopClass": {
                            "system": "urn:ietf:rfc:3986",
                            "code": "urn:oid:1.2.840.10008.5.1.4.1.1.7.4"
                        },
                        "number": 217
                    },
                    {
                        "uid": "2.25.964360479073130829741333637169774393618",
                        "sopClass": {
                            "system": "urn:ietf:rfc:3986",
                            "code": "urn:oid:1.2.840.10008.5.1.4.1.1.7.4"
                        },
                        "number": 216
                    },
                    {
                        "uid": "2.25.191209243877663403373711298759786429202",
                        "sopClass": {
                            "system": "urn:ietf:rfc:3986",
                            "code": "urn:oid:1.2.840.10008.5.1.4.1.1.7.4"
                        },
                        "number": 215
                    },
                    {
                        "uid": "2.25.264652634466949176094072589698431812272",
                        "sopClass": {
                            "system": "urn:ietf:rfc:3986",
                            "code": "urn:oid:1.2.840.10008.5.1.4.1.1.7.4"
                        },
                        "number": 214
                    },
                    {
                        "uid": "2.25.495969035797090165577173710446051282824",
                        "sopClass": {
                            "system": "urn:ietf:rfc:3986",
                            "code": "urn:oid:1.2.840.10008.5.1.4.1.1.7.4"
                        },
                        "number": 213
                    },
                    {
                        "uid": "2.25.273392843082175097886667874284023703653",
                        "sopClass": {
                            "system": "urn:ietf:rfc:3986",
                            "code": "urn:oid:1.2.840.10008.5.1.4.1.1.7.4"
                        },
                        "number": 212
                    },
                    {
                        "uid": "2.25.372108886472756964547535128807075366038",
                        "sopClass": {
                            "system": "urn:ietf:rfc:3986",
                            "code": "urn:oid:1.2.840.10008.5.1.4.1.1.7.4"
                        },
                        "number": 211
                    },
                    {
                        "uid": "2.25.498874750433134663490100869117729132381",
                        "sopClass": {
                            "system": "urn:ietf:rfc:3986",
                            "code": "urn:oid:1.2.840.10008.5.1.4.1.1.7.4"
                        },
                        "number": 210
                    },
                    {
                        "uid": "2.25.946502952600529737923996272608834872454",
                        "sopClass": {
                            "system": "urn:ietf:rfc:3986",
                            "code": "urn:oid:1.2.840.10008.5.1.4.1.1.7.4"
                        },
                        "number": 21
                    },
                    {
                        "uid": "2.25.797780519850694159775382873290721877831",
                        "sopClass": {
                            "system": "urn:ietf:rfc:3986",
                            "code": "urn:oid:1.2.840.10008.5.1.4.1.1.7.4"
                        },
                        "number": 209
                    },
                    {
                        "uid": "2.25.493297246994585191100652120302166661112",
                        "sopClass": {
                            "system": "urn:ietf:rfc:3986",
                            "code": "urn:oid:1.2.840.10008.5.1.4.1.1.7.4"
                        },
                        "number": 208
                    },
                    {
                        "uid": "2.25.374677784082681386938452911174962688080",
                        "sopClass": {
                            "system": "urn:ietf:rfc:3986",
                            "code": "urn:oid:1.2.840.10008.5.1.4.1.1.7.4"
                        },
                        "number": 207
                    },
                    {
                        "uid": "2.25.162579279262342910457190845441420677486",
                        "sopClass": {
                            "system": "urn:ietf:rfc:3986",
                            "code": "urn:oid:1.2.840.10008.5.1.4.1.1.7.4"
                        },
                        "number": 206
                    },
                    {
                        "uid": "2.25.155838197567767742464246710191607515863",
                        "sopClass": {
                            "system": "urn:ietf:rfc:3986",
                            "code": "urn:oid:1.2.840.10008.5.1.4.1.1.7.4"
                        },
                        "number": 205
                    },
                    {
                        "uid": "2.25.762732715805261918961410246671066068737",
                        "sopClass": {
                            "system": "urn:ietf:rfc:3986",
                            "code": "urn:oid:1.2.840.10008.5.1.4.1.1.7.4"
                        },
                        "number": 204
                    },
                    {
                        "uid": "2.25.837973062163344090034230718815517584993",
                        "sopClass": {
                            "system": "urn:ietf:rfc:3986",
                            "code": "urn:oid:1.2.840.10008.5.1.4.1.1.7.4"
                        },
                        "number": 203
                    },
                    {
                        "uid": "2.25.849507993209050267182294360056735673632",
                        "sopClass": {
                            "system": "urn:ietf:rfc:3986",
                            "code": "urn:oid:1.2.840.10008.5.1.4.1.1.7.4"
                        },
                        "number": 202
                    },
                    {
                        "uid": "2.25.361087251802192741004521585928326059771",
                        "sopClass": {
                            "system": "urn:ietf:rfc:3986",
                            "code": "urn:oid:1.2.840.10008.5.1.4.1.1.7.4"
                        },
                        "number": 201
                    },
                    {
                        "uid": "2.25.990463777855422268184244935384116158183",
                        "sopClass": {
                            "system": "urn:ietf:rfc:3986",
                            "code": "urn:oid:1.2.840.10008.5.1.4.1.1.7.4"
                        },
                        "number": 200
                    },
                    {
                        "uid": "2.25.695933675292051460315802897978851662467",
                        "sopClass": {
                            "system": "urn:ietf:rfc:3986",
                            "code": "urn:oid:1.2.840.10008.5.1.4.1.1.7.4"
                        },
                        "number": 20
                    },
                    {
                        "uid": "2.25.392760169324756250943442458775504529431",
                        "sopClass": {
                            "system": "urn:ietf:rfc:3986",
                            "code": "urn:oid:1.2.840.10008.5.1.4.1.1.7.4"
                        },
                        "number": 2
                    },
                    {
                        "uid": "2.25.721309479377031374510931619059065394772",
                        "sopClass": {
                            "system": "urn:ietf:rfc:3986",
                            "code": "urn:oid:1.2.840.10008.5.1.4.1.1.7.4"
                        },
                        "number": 199
                    },
                    {
                        "uid": "2.25.840957553785059016953863441234038548896",
                        "sopClass": {
                            "system": "urn:ietf:rfc:3986",
                            "code": "urn:oid:1.2.840.10008.5.1.4.1.1.7.4"
                        },
                        "number": 198
                    },
                    {
                        "uid": "2.25.968073213258342141508173319790713192112",
                        "sopClass": {
                            "system": "urn:ietf:rfc:3986",
                            "code": "urn:oid:1.2.840.10008.5.1.4.1.1.7.4"
                        },
                        "number": 197
                    },
                    {
                        "uid": "2.25.251105493913103430131714685726957156391",
                        "sopClass": {
                            "system": "urn:ietf:rfc:3986",
                            "code": "urn:oid:1.2.840.10008.5.1.4.1.1.7.4"
                        },
                        "number": 196
                    },
                    {
                        "uid": "2.25.952676039366758593189399542869447352819",
                        "sopClass": {
                            "system": "urn:ietf:rfc:3986",
                            "code": "urn:oid:1.2.840.10008.5.1.4.1.1.7.4"
                        },
                        "number": 195
                    },
                    {
                        "uid": "2.25.893068402822841181150119069462082107778",
                        "sopClass": {
                            "system": "urn:ietf:rfc:3986",
                            "code": "urn:oid:1.2.840.10008.5.1.4.1.1.7.4"
                        },
                        "number": 194
                    },
                    {
                        "uid": "2.25.608445596142259213511259197701514062063",
                        "sopClass": {
                            "system": "urn:ietf:rfc:3986",
                            "code": "urn:oid:1.2.840.10008.5.1.4.1.1.7.4"
                        },
                        "number": 193
                    },
                    {
                        "uid": "2.25.212531549054015044132813471965378549235",
                        "sopClass": {
                            "system": "urn:ietf:rfc:3986",
                            "code": "urn:oid:1.2.840.10008.5.1.4.1.1.7.4"
                        },
                        "number": 192
                    },
                    {
                        "uid": "2.25.789063559158837090405752517809338906188",
                        "sopClass": {
                            "system": "urn:ietf:rfc:3986",
                            "code": "urn:oid:1.2.840.10008.5.1.4.1.1.7.4"
                        },
                        "number": 191
                    },
                    {
                        "uid": "2.25.742150883448534648461767777166860324898",
                        "sopClass": {
                            "system": "urn:ietf:rfc:3986",
                            "code": "urn:oid:1.2.840.10008.5.1.4.1.1.7.4"
                        },
                        "number": 190
                    },
                    {
                        "uid": "2.25.288693990135292844445995865186409447012",
                        "sopClass": {
                            "system": "urn:ietf:rfc:3986",
                            "code": "urn:oid:1.2.840.10008.5.1.4.1.1.7.4"
                        },
                        "number": 19
                    },
                    {
                        "uid": "2.25.947741065925616991534545308195822324855",
                        "sopClass": {
                            "system": "urn:ietf:rfc:3986",
                            "code": "urn:oid:1.2.840.10008.5.1.4.1.1.7.4"
                        },
                        "number": 189
                    },
                    {
                        "uid": "2.25.627305148212222376607678775392896110014",
                        "sopClass": {
                            "system": "urn:ietf:rfc:3986",
                            "code": "urn:oid:1.2.840.10008.5.1.4.1.1.7.4"
                        },
                        "number": 188
                    },
                    {
                        "uid": "2.25.598799187864908680837097079969576035644",
                        "sopClass": {
                            "system": "urn:ietf:rfc:3986",
                            "code": "urn:oid:1.2.840.10008.5.1.4.1.1.7.4"
                        },
                        "number": 187
                    },
                    {
                        "uid": "2.25.708794538564119841242411811990795841406",
                        "sopClass": {
                            "system": "urn:ietf:rfc:3986",
                            "code": "urn:oid:1.2.840.10008.5.1.4.1.1.7.4"
                        },
                        "number": 186
                    },
                    {
                        "uid": "2.25.551560105284848134355812708264216102658",
                        "sopClass": {
                            "system": "urn:ietf:rfc:3986",
                            "code": "urn:oid:1.2.840.10008.5.1.4.1.1.7.4"
                        },
                        "number": 185
                    },
                    {
                        "uid": "2.25.274090955478669544241643250832595249149",
                        "sopClass": {
                            "system": "urn:ietf:rfc:3986",
                            "code": "urn:oid:1.2.840.10008.5.1.4.1.1.7.4"
                        },
                        "number": 184
                    },
                    {
                        "uid": "2.25.428568907767592799491720309720796652417",
                        "sopClass": {
                            "system": "urn:ietf:rfc:3986",
                            "code": "urn:oid:1.2.840.10008.5.1.4.1.1.7.4"
                        },
                        "number": 183
                    },
                    {
                        "uid": "2.25.488088323258658078919748124115719153604",
                        "sopClass": {
                            "system": "urn:ietf:rfc:3986",
                            "code": "urn:oid:1.2.840.10008.5.1.4.1.1.7.4"
                        },
                        "number": 182
                    },
                    {
                        "uid": "2.25.685139975840538936213185420060611507191",
                        "sopClass": {
                            "system": "urn:ietf:rfc:3986",
                            "code": "urn:oid:1.2.840.10008.5.1.4.1.1.7.4"
                        },
                        "number": 181
                    },
                    {
                        "uid": "2.25.789533719322881103766036465297854477775",
                        "sopClass": {
                            "system": "urn:ietf:rfc:3986",
                            "code": "urn:oid:1.2.840.10008.5.1.4.1.1.7.4"
                        },
                        "number": 180
                    },
                    {
                        "uid": "2.25.482368252194038300343933374221455654398",
                        "sopClass": {
                            "system": "urn:ietf:rfc:3986",
                            "code": "urn:oid:1.2.840.10008.5.1.4.1.1.7.4"
                        },
                        "number": 18
                    },
                    {
                        "uid": "2.25.712612802563435902751528488617960416222",
                        "sopClass": {
                            "system": "urn:ietf:rfc:3986",
                            "code": "urn:oid:1.2.840.10008.5.1.4.1.1.7.4"
                        },
                        "number": 179
                    },
                    {
                        "uid": "2.25.439574427344886627773087723652599348136",
                        "sopClass": {
                            "system": "urn:ietf:rfc:3986",
                            "code": "urn:oid:1.2.840.10008.5.1.4.1.1.7.4"
                        },
                        "number": 178
                    },
                    {
                        "uid": "2.25.428774904291873841702334410267129368376",
                        "sopClass": {
                            "system": "urn:ietf:rfc:3986",
                            "code": "urn:oid:1.2.840.10008.5.1.4.1.1.7.4"
                        },
                        "number": 177
                    },
                    {
                        "uid": "2.25.395034847394947644519704842720352237516",
                        "sopClass": {
                            "system": "urn:ietf:rfc:3986",
                            "code": "urn:oid:1.2.840.10008.5.1.4.1.1.7.4"
                        },
                        "number": 176
                    },
                    {
                        "uid": "2.25.610755252402536883645872369437352004417",
                        "sopClass": {
                            "system": "urn:ietf:rfc:3986",
                            "code": "urn:oid:1.2.840.10008.5.1.4.1.1.7.4"
                        },
                        "number": 175
                    },
                    {
                        "uid": "2.25.664364404994658490189648420036665024552",
                        "sopClass": {
                            "system": "urn:ietf:rfc:3986",
                            "code": "urn:oid:1.2.840.10008.5.1.4.1.1.7.4"
                        },
                        "number": 174
                    },
                    {
                        "uid": "2.25.527069322732183476802139240664002445905",
                        "sopClass": {
                            "system": "urn:ietf:rfc:3986",
                            "code": "urn:oid:1.2.840.10008.5.1.4.1.1.7.4"
                        },
                        "number": 173
                    },
                    {
                        "uid": "2.25.544458049638688874165110493173230602141",
                        "sopClass": {
                            "system": "urn:ietf:rfc:3986",
                            "code": "urn:oid:1.2.840.10008.5.1.4.1.1.7.4"
                        },
                        "number": 172
                    },
                    {
                        "uid": "2.25.422416332018597507983971013296500713109",
                        "sopClass": {
                            "system": "urn:ietf:rfc:3986",
                            "code": "urn:oid:1.2.840.10008.5.1.4.1.1.7.4"
                        },
                        "number": 171
                    },
                    {
                        "uid": "2.25.800622074435461253849933326468282970829",
                        "sopClass": {
                            "system": "urn:ietf:rfc:3986",
                            "code": "urn:oid:1.2.840.10008.5.1.4.1.1.7.4"
                        },
                        "number": 170
                    },
                    {
                        "uid": "2.25.673719837175220605266740403980247294339",
                        "sopClass": {
                            "system": "urn:ietf:rfc:3986",
                            "code": "urn:oid:1.2.840.10008.5.1.4.1.1.7.4"
                        },
                        "number": 17
                    },
                    {
                        "uid": "2.25.926776339589583935273140163714052623253",
                        "sopClass": {
                            "system": "urn:ietf:rfc:3986",
                            "code": "urn:oid:1.2.840.10008.5.1.4.1.1.7.4"
                        },
                        "number": 169
                    },
                    {
                        "uid": "2.25.364991904337401222406084411098518301583",
                        "sopClass": {
                            "system": "urn:ietf:rfc:3986",
                            "code": "urn:oid:1.2.840.10008.5.1.4.1.1.7.4"
                        },
                        "number": 168
                    },
                    {
                        "uid": "2.25.337619245222901137368413749587196773682",
                        "sopClass": {
                            "system": "urn:ietf:rfc:3986",
                            "code": "urn:oid:1.2.840.10008.5.1.4.1.1.7.4"
                        },
                        "number": 167
                    },
                    {
                        "uid": "2.25.183427616524353614957409546078991369694",
                        "sopClass": {
                            "system": "urn:ietf:rfc:3986",
                            "code": "urn:oid:1.2.840.10008.5.1.4.1.1.7.4"
                        },
                        "number": 166
                    },
                    {
                        "uid": "2.25.832601708554509173970433522685219584154",
                        "sopClass": {
                            "system": "urn:ietf:rfc:3986",
                            "code": "urn:oid:1.2.840.10008.5.1.4.1.1.7.4"
                        },
                        "number": 165
                    },
                    {
                        "uid": "2.25.439895206163185819650860716468071940245",
                        "sopClass": {
                            "system": "urn:ietf:rfc:3986",
                            "code": "urn:oid:1.2.840.10008.5.1.4.1.1.7.4"
                        },
                        "number": 164
                    },
                    {
                        "uid": "2.25.947992918935356497995530678553082904446",
                        "sopClass": {
                            "system": "urn:ietf:rfc:3986",
                            "code": "urn:oid:1.2.840.10008.5.1.4.1.1.7.4"
                        },
                        "number": 163
                    },
                    {
                        "uid": "2.25.353093012164425922218085020932780678453",
                        "sopClass": {
                            "system": "urn:ietf:rfc:3986",
                            "code": "urn:oid:1.2.840.10008.5.1.4.1.1.7.4"
                        },
                        "number": 162
                    },
                    {
                        "uid": "2.25.446968194051428155404076696932416941190",
                        "sopClass": {
                            "system": "urn:ietf:rfc:3986",
                            "code": "urn:oid:1.2.840.10008.5.1.4.1.1.7.4"
                        },
                        "number": 161
                    },
                    {
                        "uid": "2.25.162215714445718285325600297875945337653",
                        "sopClass": {
                            "system": "urn:ietf:rfc:3986",
                            "code": "urn:oid:1.2.840.10008.5.1.4.1.1.7.4"
                        },
                        "number": 160
                    },
                    {
                        "uid": "2.25.714984909640467327647565406157384665318",
                        "sopClass": {
                            "system": "urn:ietf:rfc:3986",
                            "code": "urn:oid:1.2.840.10008.5.1.4.1.1.7.4"
                        },
                        "number": 16
                    },
                    {
                        "uid": "2.25.699833145948069269032577157891327209697",
                        "sopClass": {
                            "system": "urn:ietf:rfc:3986",
                            "code": "urn:oid:1.2.840.10008.5.1.4.1.1.7.4"
                        },
                        "number": 159
                    },
                    {
                        "uid": "2.25.811781677306101749846347906179553432490",
                        "sopClass": {
                            "system": "urn:ietf:rfc:3986",
                            "code": "urn:oid:1.2.840.10008.5.1.4.1.1.7.4"
                        },
                        "number": 158
                    },
                    {
                        "uid": "2.25.944135172330443785924742541673085612023",
                        "sopClass": {
                            "system": "urn:ietf:rfc:3986",
                            "code": "urn:oid:1.2.840.10008.5.1.4.1.1.7.4"
                        },
                        "number": 157
                    },
                    {
                        "uid": "2.25.999473886036691496526433431727374044105",
                        "sopClass": {
                            "system": "urn:ietf:rfc:3986",
                            "code": "urn:oid:1.2.840.10008.5.1.4.1.1.7.4"
                        },
                        "number": 156
                    },
                    {
                        "uid": "2.25.713321089310179371352106849618956629218",
                        "sopClass": {
                            "system": "urn:ietf:rfc:3986",
                            "code": "urn:oid:1.2.840.10008.5.1.4.1.1.7.4"
                        },
                        "number": 155
                    },
                    {
                        "uid": "2.25.796341276765331852484202224587622999432",
                        "sopClass": {
                            "system": "urn:ietf:rfc:3986",
                            "code": "urn:oid:1.2.840.10008.5.1.4.1.1.7.4"
                        },
                        "number": 154
                    },
                    {
                        "uid": "2.25.356170531966782974053118581287860711091",
                        "sopClass": {
                            "system": "urn:ietf:rfc:3986",
                            "code": "urn:oid:1.2.840.10008.5.1.4.1.1.7.4"
                        },
                        "number": 153
                    },
                    {
                        "uid": "2.25.864972613468085007557085891494032921013",
                        "sopClass": {
                            "system": "urn:ietf:rfc:3986",
                            "code": "urn:oid:1.2.840.10008.5.1.4.1.1.7.4"
                        },
                        "number": 152
                    },
                    {
                        "uid": "2.25.465655799264495866645907214840523590841",
                        "sopClass": {
                            "system": "urn:ietf:rfc:3986",
                            "code": "urn:oid:1.2.840.10008.5.1.4.1.1.7.4"
                        },
                        "number": 151
                    },
                    {
                        "uid": "2.25.867503748704200564626633603887602008399",
                        "sopClass": {
                            "system": "urn:ietf:rfc:3986",
                            "code": "urn:oid:1.2.840.10008.5.1.4.1.1.7.4"
                        },
                        "number": 150
                    },
                    {
                        "uid": "2.25.413919735905059220501158433189174153417",
                        "sopClass": {
                            "system": "urn:ietf:rfc:3986",
                            "code": "urn:oid:1.2.840.10008.5.1.4.1.1.7.4"
                        },
                        "number": 15
                    },
                    {
                        "uid": "2.25.770439587944329119332135986989707816798",
                        "sopClass": {
                            "system": "urn:ietf:rfc:3986",
                            "code": "urn:oid:1.2.840.10008.5.1.4.1.1.7.4"
                        },
                        "number": 149
                    },
                    {
                        "uid": "2.25.409408030130668642484256549223793447229",
                        "sopClass": {
                            "system": "urn:ietf:rfc:3986",
                            "code": "urn:oid:1.2.840.10008.5.1.4.1.1.7.4"
                        },
                        "number": 148
                    },
                    {
                        "uid": "2.25.682648270716789186143606346826844501623",
                        "sopClass": {
                            "system": "urn:ietf:rfc:3986",
                            "code": "urn:oid:1.2.840.10008.5.1.4.1.1.7.4"
                        },
                        "number": 147
                    },
                    {
                        "uid": "2.25.728458490922197836671736050185584619984",
                        "sopClass": {
                            "system": "urn:ietf:rfc:3986",
                            "code": "urn:oid:1.2.840.10008.5.1.4.1.1.7.4"
                        },
                        "number": 146
                    },
                    {
                        "uid": "2.25.812194499893166511282723055085899867445",
                        "sopClass": {
                            "system": "urn:ietf:rfc:3986",
                            "code": "urn:oid:1.2.840.10008.5.1.4.1.1.7.4"
                        },
                        "number": 145
                    },
                    {
                        "uid": "2.25.620975210284536136277276207407752604918",
                        "sopClass": {
                            "system": "urn:ietf:rfc:3986",
                            "code": "urn:oid:1.2.840.10008.5.1.4.1.1.7.4"
                        },
                        "number": 144
                    },
                    {
                        "uid": "2.25.309801790120378233828784042354391130364",
                        "sopClass": {
                            "system": "urn:ietf:rfc:3986",
                            "code": "urn:oid:1.2.840.10008.5.1.4.1.1.7.4"
                        },
                        "number": 143
                    },
                    {
                        "uid": "2.25.167925298640454380020635944044224079632",
                        "sopClass": {
                            "system": "urn:ietf:rfc:3986",
                            "code": "urn:oid:1.2.840.10008.5.1.4.1.1.7.4"
                        },
                        "number": 142
                    },
                    {
                        "uid": "2.25.143276413350625673062801928803498622987",
                        "sopClass": {
                            "system": "urn:ietf:rfc:3986",
                            "code": "urn:oid:1.2.840.10008.5.1.4.1.1.7.4"
                        },
                        "number": 141
                    },
                    {
                        "uid": "2.25.838538241056065049078629757989945842136",
                        "sopClass": {
                            "system": "urn:ietf:rfc:3986",
                            "code": "urn:oid:1.2.840.10008.5.1.4.1.1.7.4"
                        },
                        "number": 140
                    },
                    {
                        "uid": "2.25.312925098967819157947853631556227320095",
                        "sopClass": {
                            "system": "urn:ietf:rfc:3986",
                            "code": "urn:oid:1.2.840.10008.5.1.4.1.1.7.4"
                        },
                        "number": 14
                    },
                    {
                        "uid": "2.25.369748433399764370069723699485189312436",
                        "sopClass": {
                            "system": "urn:ietf:rfc:3986",
                            "code": "urn:oid:1.2.840.10008.5.1.4.1.1.7.4"
                        },
                        "number": 139
                    },
                    {
                        "uid": "2.25.169475378014715013969143000387952686041",
                        "sopClass": {
                            "system": "urn:ietf:rfc:3986",
                            "code": "urn:oid:1.2.840.10008.5.1.4.1.1.7.4"
                        },
                        "number": 138
                    },
                    {
                        "uid": "2.25.181946233401352823408017136772312891533",
                        "sopClass": {
                            "system": "urn:ietf:rfc:3986",
                            "code": "urn:oid:1.2.840.10008.5.1.4.1.1.7.4"
                        },
                        "number": 137
                    },
                    {
                        "uid": "2.25.301345999210640568861993609501902460706",
                        "sopClass": {
                            "system": "urn:ietf:rfc:3986",
                            "code": "urn:oid:1.2.840.10008.5.1.4.1.1.7.4"
                        },
                        "number": 136
                    },
                    {
                        "uid": "2.25.441528574730691138482347782713256609570",
                        "sopClass": {
                            "system": "urn:ietf:rfc:3986",
                            "code": "urn:oid:1.2.840.10008.5.1.4.1.1.7.4"
                        },
                        "number": 135
                    },
                    {
                        "uid": "2.25.349360813391276803726800118706303527247",
                        "sopClass": {
                            "system": "urn:ietf:rfc:3986",
                            "code": "urn:oid:1.2.840.10008.5.1.4.1.1.7.4"
                        },
                        "number": 134
                    },
                    {
                        "uid": "2.25.518615605432791517922857204129385906119",
                        "sopClass": {
                            "system": "urn:ietf:rfc:3986",
                            "code": "urn:oid:1.2.840.10008.5.1.4.1.1.7.4"
                        },
                        "number": 133
                    },
                    {
                        "uid": "2.25.663641417271037447459403957417256669936",
                        "sopClass": {
                            "system": "urn:ietf:rfc:3986",
                            "code": "urn:oid:1.2.840.10008.5.1.4.1.1.7.4"
                        },
                        "number": 132
                    },
                    {
                        "uid": "2.25.802843005123283228000414214274224106517",
                        "sopClass": {
                            "system": "urn:ietf:rfc:3986",
                            "code": "urn:oid:1.2.840.10008.5.1.4.1.1.7.4"
                        },
                        "number": 131
                    },
                    {
                        "uid": "2.25.670150208886664095597838878077816076494",
                        "sopClass": {
                            "system": "urn:ietf:rfc:3986",
                            "code": "urn:oid:1.2.840.10008.5.1.4.1.1.7.4"
                        },
                        "number": 130
                    },
                    {
                        "uid": "2.25.787088708752243081736532489578083312054",
                        "sopClass": {
                            "system": "urn:ietf:rfc:3986",
                            "code": "urn:oid:1.2.840.10008.5.1.4.1.1.7.4"
                        },
                        "number": 13
                    },
                    {
                        "uid": "2.25.807374053752041940830975794013196237501",
                        "sopClass": {
                            "system": "urn:ietf:rfc:3986",
                            "code": "urn:oid:1.2.840.10008.5.1.4.1.1.7.4"
                        },
                        "number": 129
                    },
                    {
                        "uid": "2.25.514666484775734199872404830894216410791",
                        "sopClass": {
                            "system": "urn:ietf:rfc:3986",
                            "code": "urn:oid:1.2.840.10008.5.1.4.1.1.7.4"
                        },
                        "number": 128
                    },
                    {
                        "uid": "2.25.529902170379255968330949860894661927949",
                        "sopClass": {
                            "system": "urn:ietf:rfc:3986",
                            "code": "urn:oid:1.2.840.10008.5.1.4.1.1.7.4"
                        },
                        "number": 127
                    },
                    {
                        "uid": "2.25.948003209300229074247828089898295234408",
                        "sopClass": {
                            "system": "urn:ietf:rfc:3986",
                            "code": "urn:oid:1.2.840.10008.5.1.4.1.1.7.4"
                        },
                        "number": 126
                    },
                    {
                        "uid": "2.25.663135873090943320935842250994215590590",
                        "sopClass": {
                            "system": "urn:ietf:rfc:3986",
                            "code": "urn:oid:1.2.840.10008.5.1.4.1.1.7.4"
                        },
                        "number": 125
                    },
                    {
                        "uid": "2.25.725193933933138088262112363796452116572",
                        "sopClass": {
                            "system": "urn:ietf:rfc:3986",
                            "code": "urn:oid:1.2.840.10008.5.1.4.1.1.7.4"
                        },
                        "number": 124
                    },
                    {
                        "uid": "2.25.769751092056793304142466438629188960955",
                        "sopClass": {
                            "system": "urn:ietf:rfc:3986",
                            "code": "urn:oid:1.2.840.10008.5.1.4.1.1.7.4"
                        },
                        "number": 123
                    },
                    {
                        "uid": "2.25.590215614084431547834525682802162047070",
                        "sopClass": {
                            "system": "urn:ietf:rfc:3986",
                            "code": "urn:oid:1.2.840.10008.5.1.4.1.1.7.4"
                        },
                        "number": 122
                    },
                    {
                        "uid": "2.25.377115545222632032264268542296572591373",
                        "sopClass": {
                            "system": "urn:ietf:rfc:3986",
                            "code": "urn:oid:1.2.840.10008.5.1.4.1.1.7.4"
                        },
                        "number": 121
                    },
                    {
                        "uid": "2.25.819855913041619198760788137741204510116",
                        "sopClass": {
                            "system": "urn:ietf:rfc:3986",
                            "code": "urn:oid:1.2.840.10008.5.1.4.1.1.7.4"
                        },
                        "number": 120
                    },
                    {
                        "uid": "2.25.421366260500920402021005814300353576065",
                        "sopClass": {
                            "system": "urn:ietf:rfc:3986",
                            "code": "urn:oid:1.2.840.10008.5.1.4.1.1.7.4"
                        },
                        "number": 12
                    },
                    {
                        "uid": "2.25.144922932252996937662314434122369479864",
                        "sopClass": {
                            "system": "urn:ietf:rfc:3986",
                            "code": "urn:oid:1.2.840.10008.5.1.4.1.1.7.4"
                        },
                        "number": 119
                    },
                    {
                        "uid": "2.25.573004104473319186717272979385314137021",
                        "sopClass": {
                            "system": "urn:ietf:rfc:3986",
                            "code": "urn:oid:1.2.840.10008.5.1.4.1.1.7.4"
                        },
                        "number": 118
                    },
                    {
                        "uid": "2.25.269902093195213720361532240430437452453",
                        "sopClass": {
                            "system": "urn:ietf:rfc:3986",
                            "code": "urn:oid:1.2.840.10008.5.1.4.1.1.7.4"
                        },
                        "number": 117
                    },
                    {
                        "uid": "2.25.529185422222875949780808492372159918312",
                        "sopClass": {
                            "system": "urn:ietf:rfc:3986",
                            "code": "urn:oid:1.2.840.10008.5.1.4.1.1.7.4"
                        },
                        "number": 116
                    },
                    {
                        "uid": "2.25.501130143319246695709615124019353087959",
                        "sopClass": {
                            "system": "urn:ietf:rfc:3986",
                            "code": "urn:oid:1.2.840.10008.5.1.4.1.1.7.4"
                        },
                        "number": 115
                    },
                    {
                        "uid": "2.25.352094841930458723714214624642671245463",
                        "sopClass": {
                            "system": "urn:ietf:rfc:3986",
                            "code": "urn:oid:1.2.840.10008.5.1.4.1.1.7.4"
                        },
                        "number": 114
                    },
                    {
                        "uid": "2.25.920518973980271790621259141379203833766",
                        "sopClass": {
                            "system": "urn:ietf:rfc:3986",
                            "code": "urn:oid:1.2.840.10008.5.1.4.1.1.7.4"
                        },
                        "number": 113
                    },
                    {
                        "uid": "2.25.216543590046680553128783530745740477772",
                        "sopClass": {
                            "system": "urn:ietf:rfc:3986",
                            "code": "urn:oid:1.2.840.10008.5.1.4.1.1.7.4"
                        },
                        "number": 112
                    },
                    {
                        "uid": "2.25.523244072468807578386882263373516063254",
                        "sopClass": {
                            "system": "urn:ietf:rfc:3986",
                            "code": "urn:oid:1.2.840.10008.5.1.4.1.1.7.4"
                        },
                        "number": 111
                    },
                    {
                        "uid": "2.25.899771944958351309090361613029040602853",
                        "sopClass": {
                            "system": "urn:ietf:rfc:3986",
                            "code": "urn:oid:1.2.840.10008.5.1.4.1.1.7.4"
                        },
                        "number": 110
                    },
                    {
                        "uid": "2.25.371749199495055404078856421540937577171",
                        "sopClass": {
                            "system": "urn:ietf:rfc:3986",
                            "code": "urn:oid:1.2.840.10008.5.1.4.1.1.7.4"
                        },
                        "number": 11
                    },
                    {
                        "uid": "2.25.835696765593425472797339161301571860811",
                        "sopClass": {
                            "system": "urn:ietf:rfc:3986",
                            "code": "urn:oid:1.2.840.10008.5.1.4.1.1.7.4"
                        },
                        "number": 109
                    },
                    {
                        "uid": "2.25.665728179411686310587220776963865860911",
                        "sopClass": {
                            "system": "urn:ietf:rfc:3986",
                            "code": "urn:oid:1.2.840.10008.5.1.4.1.1.7.4"
                        },
                        "number": 108
                    },
                    {
                        "uid": "2.25.484019990457947709121681031429877688074",
                        "sopClass": {
                            "system": "urn:ietf:rfc:3986",
                            "code": "urn:oid:1.2.840.10008.5.1.4.1.1.7.4"
                        },
                        "number": 107
                    },
                    {
                        "uid": "2.25.444735073524933447084347825509208611278",
                        "sopClass": {
                            "system": "urn:ietf:rfc:3986",
                            "code": "urn:oid:1.2.840.10008.5.1.4.1.1.7.4"
                        },
                        "number": 106
                    },
                    {
                        "uid": "2.25.366806563121272630688663120818913309060",
                        "sopClass": {
                            "system": "urn:ietf:rfc:3986",
                            "code": "urn:oid:1.2.840.10008.5.1.4.1.1.7.4"
                        },
                        "number": 105
                    },
                    {
                        "uid": "2.25.134399319978060656517393039020572695569",
                        "sopClass": {
                            "system": "urn:ietf:rfc:3986",
                            "code": "urn:oid:1.2.840.10008.5.1.4.1.1.7.4"
                        },
                        "number": 104
                    },
                    {
                        "uid": "2.25.579567456034777941991557906916864257178",
                        "sopClass": {
                            "system": "urn:ietf:rfc:3986",
                            "code": "urn:oid:1.2.840.10008.5.1.4.1.1.7.4"
                        },
                        "number": 103
                    },
                    {
                        "uid": "2.25.606321467810040209995722935309184053719",
                        "sopClass": {
                            "system": "urn:ietf:rfc:3986",
                            "code": "urn:oid:1.2.840.10008.5.1.4.1.1.7.4"
                        },
                        "number": 102
                    },
                    {
                        "uid": "2.25.883922062432055141832564651882402245604",
                        "sopClass": {
                            "system": "urn:ietf:rfc:3986",
                            "code": "urn:oid:1.2.840.10008.5.1.4.1.1.7.4"
                        },
                        "number": 101
                    },
                    {
                        "uid": "2.25.705261392280334097517747496394537150685",
                        "sopClass": {
                            "system": "urn:ietf:rfc:3986",
                            "code": "urn:oid:1.2.840.10008.5.1.4.1.1.7.4"
                        },
                        "number": 100
                    },
                    {
                        "uid": "2.25.691894370761480446564016757789319264942",
                        "sopClass": {
                            "system": "urn:ietf:rfc:3986",
                            "code": "urn:oid:1.2.840.10008.5.1.4.1.1.7.4"
                        },
                        "number": 10
                    },
                    {
                        "uid": "2.25.293719514251190302626210231894222233208",
                        "sopClass": {
                            "system": "urn:ietf:rfc:3986",
                            "code": "urn:oid:1.2.840.10008.5.1.4.1.1.7.4"
                        },
                        "number": 1
                    }
                ]
            }
        ]
    }
}